models:
  - name: stg_sdtm__dm
    description: "DM"
    columns:
      - name: id
        description: "Unique identifier for the record"
      - name: studyid
        description: "Study identifier"
      - name: domain
        description: "Domain abbreviation"
      - name: usubjid
        description: "Unique subject identifier"
      - name: subjid
        description: "Subject identifier for the study"
      - name: rfstdtc
        description: "Subject reference start date/time"
      - name: rfxstdtc
        description: "Date/time of first study treatment"
      - name: dthfl
        description: "Death flag"
      - name: siteid
        description: "Study site identifier"
      - name: age
        description: "Age of the subject"
      - name: ageu
        description: "Age units"
      - name: sex
        description: "Sex of the subject"
      - name: race
        description: "Race of the subject"
      - name: ethnic
        description: "Ethnicity of the subject"
      - name: armcd
        description: "Planned arm code"
      - name: arm
        description: "Description of planned arm"
      - name: actarmcd
        description: "Actual arm code"
      - name: actarm
        description: "Description of actual arm"
      - name: country
        description: "Country of the investigational site"
      - name: dmdy
        description: "Study day of collection"
      - name: hivanlys
        description: "HIV analysis population flag"
      - name: itt
        description: "Intent-to-treat population flag"
      - name: ittdisp
        description: "Disposition for intent-to-treat population"
      - name: mitthiv
        description: "Modified intent-to-treat HIV population flag"
      - name: mittpeds
        description: "Modified intent-to-treat pediatric population flag"
      - name: mittprim
        description: "Modified intent-to-treat primary population flag"
      - name: pedstrcs
        description: "Pediatric stratum code"
      - name: ppdisp
        description: "Per-protocol disposition"
      - name: pprot
        description: "Per-protocol population flag"
      - name: prianlys
        description: "Primary analysis population flag"
      - name: race1
        description: "First race category"
      - name: race2
        description: "Second race category"
      - name: racec
        description: "Race category"
      - name: racesp
        description: "Race specification"
      - name: region
        description: "Geographic region"
      - name: rfendy
        description: "Reference end date"
      - name: safety
        description: "Safety population flag"